File: data/popularity_export07-06020/TGA.csv
timestamp,users_holding
"2018-05-02 04:54:29",134
"2018-05-03 16:43:49",135
"2018-05-04 05:43:48",137
"2018-05-04 21:18:31",144
"2018-05-05 07:43:50",144
"2018-05-05 20:43:49",144
"2018-05-06 09:43:48",144
"2018-05-06 22:43:49",144
"2018-05-07 10:43:49",144
"2018-05-08 04:43:49",143
"2018-05-08 17:43:48",146
"2018-05-09 06:43:48",152
"2018-05-09 19:43:49",155
"2018-05-10 08:43:50",158
"2018-05-10 21:43:50",157
"2018-05-11 10:43:49",157
"2018-05-11 23:43:49",154
"2018-05-12 12:43:50",154
"2018-05-13 01:43:50",154
"2018-05-13 14:43:49",154
"2018-05-14 03:43:50",154
"2018-05-14 16:43:50",153
"2018-05-15 05:43:50",154
"2018-05-15 18:43:54",147
"2018-05-16 07:43:50",147
"2018-05-16 20:43:49",147
"2018-05-17 09:43:50",147
"2018-05-18 13:43:51",159
"2018-05-19 02:43:50",173
"2018-05-19 15:43:50",173
"2018-05-20 04:43:50",173
"2018-05-20 17:43:50",173
"2018-05-21 06:43:50",173
"2018-05-21 19:43:50",266
"2018-05-22 08:43:55",284
"2018-05-22 21:43:49",306
"2018-05-23 10:43:51",306
"2018-05-23 23:43:49",320
"2018-05-24 20:12:58",311
"2018-05-25 08:43:50",311
"2018-05-25 21:43:50",297
"2018-05-26 10:43:50",297
"2018-05-26 23:43:51",297
"2018-05-27 12:43:50",297
"2018-05-28 01:43:50",297
"2018-05-28 14:43:50",297
"2018-05-29 03:43:51",297
"2018-05-30 22:43:50",266
"2018-05-31 11:43:50",266
"2018-06-01 00:43:50",275
"2018-06-01 13:43:59",275
"2018-06-02 02:43:52",273
"2018-06-02 15:43:53",273
"2018-06-03 04:43:51",273
"2018-06-04 05:43:52",273
"2018-06-04 18:43:47",270
"2018-06-05 07:43:47",266
"2018-06-05 20:43:48",271
"2018-06-06 09:43:47",271
"2018-06-06 22:43:51",271
"2018-06-07 11:43:52",271
"2018-06-08 00:43:52",271
"2018-06-08 13:43:53",271
"2018-06-09 02:43:51",260
"2018-06-09 15:43:54",260
"2018-06-10 04:43:52",260
"2018-06-10 17:43:52",260
"2018-06-11 07:43:51",260
"2018-06-11 20:43:52",266
"2018-06-12 09:43:51",266
"2018-06-12 22:43:50",266
"2018-06-13 11:43:51",266
"2018-06-14 00:43:52",263
"2018-06-14 13:43:54",263
"2018-06-15 02:43:52",265
"2018-06-15 15:43:53",260
"2018-06-16 04:43:55",255
"2018-06-16 17:43:53",255
"2018-06-17 06:43:52",255
"2018-06-17 19:43:54",255
"2018-06-18 08:43:59",255
"2018-06-18 21:43:52",248
"2018-06-19 10:43:53",248
"2018-06-19 23:43:53",242
"2018-06-20 12:43:52",242
"2018-06-21 01:43:52",250
"2018-06-21 14:43:53",253
"2018-06-22 03:43:53",249
"2018-06-22 16:43:54",248
"2018-06-23 05:43:54",249
"2018-06-23 18:43:54",249
"2018-06-24 07:43:54",249
"2018-06-24 20:43:53",249
"2018-06-25 09:43:54",249
"2018-06-25 22:43:53",247
"2018-06-26 12:44:08",247
"2018-06-27 01:43:53",257
"2018-06-27 14:44:13",263
"2018-06-28 03:44:10",281
"2018-06-28 16:43:53",317
"2018-06-29 05:43:56",331
"2018-06-29 18:43:54",345
"2018-06-30 07:43:54",348
"2018-06-30 20:43:53",348
"2018-07-01 09:43:54",348
"2018-07-01 22:43:53",348
"2018-07-02 11:43:53",348
"2018-07-03 00:53:29",366
"2018-07-03 13:43:55",366
"2018-07-04 02:43:55",393
"2018-07-04 15:43:53",393
"2018-07-05 04:43:54",393
"2018-07-05 17:43:56",403
"2018-07-06 06:43:53",409
"2018-07-06 19:44:00",406
"2018-07-07 08:43:54",403
"2018-07-07 21:43:53",403
"2018-07-08 10:43:53",403
"2018-07-08 23:43:54",403
"2018-07-09 12:43:54",403
"2018-07-10 01:43:57",443
"2018-07-10 14:43:58",475
"2018-07-11 03:43:56",507
"2018-07-11 16:43:56",528
"2018-07-12 05:43:56",559
"2018-07-12 18:43:57",614
"2018-07-13 07:43:55",629
"2018-07-13 20:43:55",662
"2018-07-14 09:43:56",661
"2018-07-14 22:43:58",661
"2018-07-15 11:43:56",661
"2018-07-16 00:43:57",661
"2018-07-16 13:44:09",662
"2018-07-17 02:43:57",662
"2018-07-17 15:43:57",602
"2018-07-18 04:44:00",581
"2018-07-18 17:44:02",570
"2018-07-19 06:44:05",570
"2018-07-19 19:44:06",562
"2018-07-20 08:44:01",562
"2018-07-20 21:44:01",524
"2018-07-21 10:44:01",524
"2018-07-21 23:44:01",524
"2018-07-22 12:44:02",524
"2018-07-23 01:44:00",524
"2018-07-24 03:44:01",510
"2018-07-24 16:44:03",500
"2018-07-25 05:44:00",500
"2018-07-25 18:44:04",487
"2018-07-26 07:44:01",479
"2018-07-26 21:44:01",475
"2018-07-27 10:44:02",475
"2018-07-27 23:44:01",453
"2018-07-28 12:44:01",453
"2018-07-29 01:44:03",453
"2018-07-29 14:44:02",453
"2018-07-30 03:44:02",453
"2018-07-30 16:44:04",450
"2018-07-31 05:44:02",446
"2018-07-31 18:44:02",444
"2018-08-01 07:44:02",443
"2018-08-01 20:44:01",433
"2018-08-02 09:44:02",433
"2018-08-02 22:44:03",419
"2018-08-03 11:46:04",419
"2018-08-04 00:44:02",421
"2018-08-04 13:44:04",421
"2018-08-05 02:44:04",421
"2018-08-05 15:44:03",421
"2018-08-06 04:44:02",421
"2018-08-06 17:44:05",416
"2018-08-07 06:44:03",415
"2018-08-07 19:44:06",413
"2018-08-08 08:44:05",412
"2018-08-08 21:44:03",411
"2018-08-10 09:44:06",406
"2018-08-10 22:44:06",402
"2018-08-11 11:44:06",402
"2018-08-12 00:44:07",402
"2018-08-12 13:44:08",402
"2018-08-13 02:44:08",402
"2018-08-13 15:44:10",401
"2018-08-14 04:44:08",395
"2018-08-14 17:44:07",423
"2018-08-15 06:44:08",423
"2018-08-15 19:44:08",406
"2018-08-16 08:44:08",408
"2018-08-16 21:44:08",396
"2018-08-17 10:44:07",396
"2018-08-17 23:44:06",398
"2018-08-18 12:44:09",398
"2018-08-19 01:44:07",398
"2018-08-19 14:44:06",398
"2018-08-20 03:44:06",398
"2018-08-20 16:44:09",394
"2018-08-21 05:44:06",393
"2018-08-21 18:44:07",405
"2018-08-22 07:44:06",410
"2018-08-22 20:44:04",410
"2018-08-23 09:44:06",410
"2018-08-23 22:44:06",398
"2018-08-25 02:44:07",392
"2018-08-25 15:44:07",392
"2018-08-26 04:44:06",392
"2018-08-26 17:44:06",392
"2018-08-27 06:44:06",392
"2018-08-27 19:44:09",389
"2018-08-28 08:44:05",389
"2018-08-28 21:44:19",385
"2018-08-29 10:44:18",385
"2018-08-29 23:44:19",384
"2018-08-30 12:44:18",384
"2018-08-31 01:44:19",378
"2018-08-31 14:44:20",378
"2018-09-01 03:44:19",376
"2018-09-01 16:44:19",376
"2018-09-02 05:44:19",376
"2018-09-02 18:44:19",376
"2018-09-03 07:44:19",376
"2018-09-03 20:44:20",376
"2018-09-04 09:44:18",376
"2018-09-04 22:44:20",367
"2018-09-05 11:44:22",367
"2018-09-06 00:44:20",361
"2018-09-06 13:44:27",361
"2018-09-07 02:44:20",360
"2018-09-07 16:44:22",355
"2018-09-08 05:44:19",348
"2018-09-08 18:44:19",348
"2018-09-09 07:44:19",348
"2018-09-09 20:44:19",348
"2018-09-10 09:44:19",348
"2018-09-10 22:44:19",375
"2018-09-11 11:44:18",375
"2018-09-12 00:44:20",408
"2018-09-13 07:44:19",392
"2018-09-13 21:44:20",391
"2018-09-14 10:44:20",391
"2018-09-14 23:44:20",387
"2018-09-15 12:44:21",387
"2018-09-16 01:44:20",387
"2018-09-16 14:44:20",387
"2018-09-17 03:44:20",387
"2018-09-17 16:44:22",386
"2018-09-18 05:44:20",379
"2018-09-18 18:44:27",367
"2018-09-19 07:44:20",366
"2018-09-19 20:44:20",361
"2018-09-20 09:45:05",361
"2018-09-20 23:44:21",358
"2018-09-21 13:44:29",358
"2018-09-22 02:44:21",352
"2018-09-22 15:44:22",352
"2018-09-23 04:44:23",352
"2018-09-23 17:44:21",352
"2018-09-24 06:44:21",352
"2018-09-24 19:44:23",355
"2018-09-25 08:44:21",358
"2018-09-25 21:44:22",374
"2018-09-26 10:44:21",374
"2018-09-26 23:44:22",367
"2018-09-27 12:44:22",367
"2018-09-28 01:44:23",361
"2018-09-28 14:44:26",361
"2018-09-29 03:44:24",368
"2018-09-29 16:44:22",368
"2018-09-30 05:44:21",368
"2018-09-30 18:44:21",368
"2018-10-01 07:44:22",368
"2018-10-01 20:44:23",360
"2018-10-02 09:44:23",360
"2018-10-02 22:44:22",348
"2018-10-03 11:44:24",349
"2018-10-04 00:44:24",347
"2018-10-04 14:10:35",343
"2018-10-05 02:44:23",337
"2018-10-05 15:44:26",330
"2018-10-06 04:44:24",326
"2018-10-06 17:44:23",326
"2018-10-07 06:44:24",326
"2018-10-07 19:44:24",326
"2018-10-08 08:44:22",326
"2018-10-08 21:44:23",322
"2018-10-09 10:44:21",322
"2018-10-10 00:44:21",320
"2018-10-10 13:44:28",320
"2018-10-11 02:44:21",318
"2018-10-11 15:44:24",316
"2018-10-12 04:44:22",311
"2018-10-12 17:44:22",309
"2018-10-13 06:44:21",309
"2018-10-13 19:44:22",309
"2018-10-14 08:44:20",309
"2018-10-14 21:44:22",309
"2018-10-15 10:44:22",309
"2018-10-15 23:44:23",311
"2018-10-16 16:44:22",311
"2018-10-17 05:44:24",309
"2018-10-17 18:44:26",304
"2018-10-18 07:44:22",303
"2018-10-18 20:44:24",304
"2018-10-19 09:44:22",304
"2018-10-19 22:44:23",300
"2018-10-20 11:44:22",300
"2018-10-21 00:44:23",300
"2018-10-21 13:44:27",300
"2018-10-22 02:44:26",300
"2018-10-22 15:44:25",297
"2018-10-23 04:44:23",293
"2018-10-23 17:44:23",295
"2018-10-24 06:44:25",306
"2018-10-24 19:44:25",334
"2018-10-25 08:44:25",335
"2018-10-25 22:44:25",334
"2018-10-26 11:44:23",334
"2018-10-27 00:44:23",318
"2018-10-27 13:44:22",318
"2018-10-28 02:44:23",318
"2018-10-28 15:44:22",318
"2018-10-29 04:44:24",318
"2018-10-29 17:44:24",312
"2018-10-30 06:44:23",310
"2018-10-30 19:44:24",306
"2018-10-31 08:44:24",306
"2018-10-31 21:44:22",306
"2018-11-01 10:44:24",306
"2018-11-01 23:44:24",301
"2018-11-02 12:44:23",301
"2018-11-03 01:44:25",302
"2018-11-03 14:44:25",302
"2018-11-04 03:44:25",302
"2018-11-04 16:44:24",302
"2018-11-05 05:44:26",302
"2018-11-05 18:44:24",304
"2018-11-06 07:44:26",302
"2018-11-06 20:44:28",298
"2018-11-07 09:44:25",298
"2018-11-07 22:44:28",298
"2018-11-08 11:44:25",298
"2018-11-09 00:44:27",301
"2018-11-09 13:44:25",301
"2018-11-10 02:44:26",299
"2018-11-10 15:44:30",299
"2018-11-11 04:44:26",299
"2018-11-11 17:44:27",299
"2018-11-12 06:44:27",299
"2018-11-12 19:44:28",299
"2018-11-13 08:44:29",300
"2018-11-13 21:44:26",298
"2018-11-14 10:44:26",299
"2018-11-14 23:44:27",296
"2018-11-15 12:44:26",296
"2018-11-16 01:44:26",297
"2018-11-16 14:44:31",297
"2018-11-17 03:44:30",293
"2018-11-17 16:44:25",293
"2018-11-18 05:44:26",293
"2018-11-18 18:44:26",293
"2018-11-19 07:44:26",293
"2018-11-19 21:44:27",302
"2018-11-20 10:44:26",302
"2018-11-20 23:44:26",306
"2018-11-21 12:44:25",306
"2018-11-22 02:44:27",301
"2018-11-22 15:44:26",301
"2018-11-23 04:44:26",301
"2018-11-23 17:44:26",302
"2018-11-24 06:44:27",301
"2018-11-24 19:44:26",301
"2018-11-25 08:44:26",301
"2018-11-25 21:44:26",301
"2018-11-26 10:44:27",301
"2018-11-26 23:44:30",300
"2018-11-27 12:44:26",300
"2018-11-28 01:44:28",303
"2018-11-28 14:44:29",303
"2018-11-29 03:44:26",302
"2018-11-29 16:44:29",301
"2018-11-30 05:44:30",299
"2018-11-30 18:44:27",295
"2018-12-01 07:44:26",293
"2018-12-01 20:44:28",293
"2018-12-02 09:44:27",293
"2018-12-02 22:44:26",293
"2018-12-03 11:44:27",293
"2018-12-04 00:44:29",289
"2018-12-04 13:44:27",289
"2018-12-05 02:44:30",288
"2018-12-05 15:44:28",288
"2018-12-06 04:44:26",288
"2018-12-06 17:44:31",287
"2018-12-07 06:44:34",289
"2018-12-07 19:44:35",287
"2018-12-08 09:44:31",287
"2018-12-08 22:44:32",287
"2018-12-09 11:44:34",287
"2018-12-10 00:44:34",287
"2018-12-10 13:44:37",287
"2018-12-11 02:44:33",282
"2018-12-11 15:44:33",281
"2018-12-12 04:44:32",279
"2018-12-12 17:44:35",278
"2018-12-13 06:44:35",277
"2018-12-13 19:44:35",277
"2018-12-14 08:44:33",277
"2018-12-14 21:44:33",276
"2018-12-15 10:44:33",276
"2018-12-15 23:44:32",276
"2018-12-16 12:44:32",276
"2018-12-17 01:44:32",276
"2018-12-17 14:44:39",276
"2018-12-18 03:44:33",276
"2018-12-18 16:44:33",275
"2018-12-19 05:44:36",273
"2018-12-19 19:44:33",272
"2018-12-20 08:44:36",272
"2018-12-20 21:44:36",270
"2018-12-21 10:44:32",270
"2018-12-21 23:44:36",270
"2018-12-22 12:44:33",270
"2018-12-23 01:44:36",270
"2018-12-23 14:44:36",270
"2018-12-24 03:44:39",270
"2018-12-24 16:44:37",271
"2018-12-25 05:44:35",271
"2018-12-25 18:44:34",271
"2018-12-26 07:44:36",271
"2018-12-26 20:44:38",266
"2018-12-27 09:44:35",266
"2018-12-27 22:44:43",266
"2018-12-28 11:44:36",266
"2018-12-29 00:44:36",268
"2018-12-29 13:44:35",268
"2018-12-30 02:44:33",268
"2018-12-30 15:44:33",268
"2018-12-31 04:44:36",268
"2018-12-31 17:44:36",268
"2019-01-01 06:44:34",268
"2019-01-01 19:44:33",268
"2019-01-02 08:44:34",268
"2019-01-02 21:44:34",272
"2019-01-03 11:44:35",272
"2019-01-04 00:44:38",270
"2019-01-04 13:44:35",270
"2019-01-05 02:44:37",267
"2019-01-05 15:44:34",267
"2019-01-06 04:44:35",267
"2019-01-06 17:44:35",267
"2019-01-07 06:44:35",267
"2019-01-07 19:44:35",270
"2019-01-08 08:44:36",272
"2019-01-08 21:44:37",272
"2019-01-09 11:44:35",272
"2019-01-10 00:44:34",269
"2019-01-10 13:44:35",269
"2019-01-11 02:44:37",270
"2019-01-11 15:44:39",270
"2019-01-12 04:44:33",270
"2019-01-12 17:44:35",270
"2019-01-13 06:44:34",270
"2019-01-13 19:44:34",270
"2019-01-14 08:44:34",270
"2019-01-14 21:44:35",270
"2019-01-15 10:44:33",270
"2019-01-15 23:44:37",269
"2019-01-16 12:44:32",269
"2019-01-17 01:44:35",269
"2019-01-17 15:10:41",270
"2019-01-18 03:44:38",268
"2019-01-18 16:44:37",271
"2019-01-19 05:44:34",271
"2019-01-19 18:44:33",271
"2019-01-20 07:44:34",271
"2019-01-20 20:44:34",271
"2019-01-21 09:44:35",271
"2019-01-21 22:44:34",271
"2019-01-22 11:44:33",271
"2019-01-23 00:44:34",271
"2019-01-23 13:44:34",271
"2019-01-30 08:49:14",270
"2019-01-30 14:49:20",270
"2019-01-30 21:49:17",267
"2019-01-31 04:49:12",267
"2019-01-31 15:44:42",267
"2019-02-01 04:44:41",264
"2019-02-01 17:44:41",266
"2019-02-02 06:44:41",268
"2019-02-02 19:44:41",268
"2019-02-03 08:44:40",268
"2019-02-03 21:44:45",268
"2019-02-04 10:44:42",268
"2019-02-04 23:44:43",272
"2019-02-05 12:44:41",272
"2019-02-06 01:44:42",270
"2019-02-07 06:44:40",266
"2019-02-07 19:44:48",266
"2019-02-08 08:44:42",266
"2019-02-08 21:44:46",269
"2019-02-09 10:44:44",269
"2019-02-09 23:44:46",269
"2019-02-10 12:44:44",269
"2019-02-11 01:44:47",269
"2019-02-11 14:44:45",269
"2019-02-12 03:44:45",268
"2019-02-12 16:44:46",268
"2019-02-13 05:44:47",269
"2019-02-13 18:44:44",269
"2019-02-14 07:44:46",269
"2019-02-14 20:44:48",270
"2019-02-15 10:44:47",270
"2019-02-15 23:44:50",266
"2019-02-16 12:44:47",266
"2019-02-17 01:44:46",266
"2019-02-17 14:44:45",266
"2019-02-18 03:44:49",266
"2019-02-18 16:44:47",266
"2019-02-19 05:44:45",266
"2019-02-19 18:44:52",268
"2019-02-20 07:44:46",269
"2019-02-20 20:44:53",269
"2019-02-21 09:44:45",268
"2019-02-21 22:44:46",268
"2019-02-22 11:44:47",268
"2019-02-23 00:44:45",269
"2019-02-23 13:44:46",269
"2019-02-24 02:44:48",269
"2019-02-24 15:44:48",269
"2019-02-25 04:44:47",269
"2019-02-25 17:44:49",269
"2019-02-26 06:44:51",269
"2019-02-26 19:44:54",269
"2019-02-27 09:44:45",270
"2019-02-27 22:44:51",268
"2019-02-28 12:44:48",268
"2019-03-01 01:44:50",271
"2019-03-01 14:44:53",271
"2019-03-02 10:44:46",270
"2019-03-04 16:44:49",272
"2019-03-05 05:44:49",275
"2019-03-05 18:44:50",272
"2019-03-06 07:44:50",271
"2019-03-06 20:44:51",269
"2019-03-07 10:44:49",271
"2019-03-07 23:44:48",272
"2019-03-08 14:09:55",272
"2019-03-09 02:44:50",273
"2019-03-09 15:44:51",273
"2019-03-10 04:44:47",273
"2019-03-10 17:44:53",273
"2019-03-11 06:44:47",273
"2019-03-11 19:44:48",271
"2019-03-12 08:44:47",270
"2019-03-12 21:44:47",267
"2019-03-13 10:44:45",267
"2019-03-13 23:44:49",271
"2019-03-14 13:09:22",271
"2019-03-15 01:44:50",273
"2019-03-15 14:44:50",273
"2019-03-16 03:44:52",268
"2019-03-16 16:44:50",268
"2019-03-17 05:44:52",268
"2019-03-17 18:44:48",268
"2019-03-18 07:44:49",268
"2019-03-18 20:44:51",271
"2019-03-19 09:44:51",272
"2019-03-19 22:44:58",271
"2019-03-20 11:44:55",271
"2019-03-21 00:44:50",273
"2019-03-21 13:44:47",273
"2019-03-22 02:44:54",275
"2019-03-22 15:44:45",277
"2019-03-23 04:44:45",278
"2019-03-23 17:44:45",278
"2019-03-24 06:44:48",278
"2019-03-24 19:44:46",278
"2019-03-25 08:44:48",278
"2019-03-25 21:44:46",274
"2019-03-26 10:44:50",274
"2019-03-26 23:44:47",272
"2019-03-27 13:09:31",272
"2019-03-28 01:44:48",272
"2019-03-28 14:44:48",273
"2019-03-29 03:44:58",275
"2019-03-29 16:44:44",275
"2019-03-30 05:44:51",274
"2019-03-30 18:44:45",274
"2019-03-31 07:44:48",274
"2019-03-31 20:44:47",274
"2019-04-01 09:44:49",274
"2019-04-01 23:44:52",279
"2019-04-02 13:09:31",279
"2019-04-03 01:44:53",278
"2019-04-03 14:45:00",279
"2019-04-04 03:44:56",277
"2019-04-04 16:44:59",279
"2019-04-05 05:44:48",281
"2019-04-05 18:44:52",282
"2019-04-06 07:44:53",282
"2019-04-06 20:44:47",282
"2019-04-07 09:44:56",282
"2019-04-07 22:44:48",282
"2019-04-08 11:45:04",282
"2019-04-09 00:44:58",288
"2019-04-09 13:44:51",288
"2019-04-10 02:44:55",290
"2019-04-10 15:44:56",293
"2019-04-11 04:44:56",292
"2019-04-12 04:44:53",293
"2019-04-12 17:44:52",295
"2019-04-13 06:44:53",295
"2019-04-13 19:44:53",295
"2019-04-14 08:44:51",295
"2019-04-14 21:45:05",295
"2019-04-15 10:44:49",295
"2019-04-15 23:44:59",297
"2019-04-16 13:08:55",297
"2019-04-17 01:44:55",299
"2019-04-17 14:44:52",298
"2019-04-18 04:44:54",299
"2019-04-18 17:45:00",299
"2019-04-19 07:44:58",298
"2019-04-19 20:44:51",298
"2019-04-20 09:44:58",298
"2019-04-20 22:44:51",298
"2019-04-21 11:44:53",298
"2019-04-22 00:44:50",298
"2019-04-22 13:44:55",298
"2019-04-23 02:44:52",296
"2019-04-23 15:44:57",300
"2019-04-24 04:44:52",301
"2019-04-24 17:44:56",300
"2019-04-25 06:44:57",300
"2019-04-25 19:44:56",304
"2019-04-26 08:44:59",304
"2019-04-26 21:44:50",304
"2019-04-27 10:44:51",304
"2019-04-27 23:44:48",304
"2019-04-28 12:44:48",304
"2019-04-29 01:44:46",304
"2019-04-29 14:44:55",303
"2019-04-30 03:44:57",301
"2019-04-30 16:44:56",300
"2019-05-01 05:44:55",302
"2019-05-01 18:44:56",300
"2019-05-02 07:44:58",299
"2019-05-02 21:44:58",298
"2019-05-03 10:45:04",298
"2019-05-03 23:45:05",297
"2019-05-04 12:45:03",297
"2019-05-05 01:45:03",297
"2019-05-05 14:44:58",297
"2019-05-06 03:45:00",297
"2019-05-06 16:44:57",296
"2019-05-07 04:44:55",296
"2019-05-07 17:44:56",295
"2019-05-08 06:44:53",296
"2019-05-08 19:44:54",296
"2019-05-09 08:44:57",296
"2019-05-09 21:44:53",295
"2019-05-10 10:44:56",295
"2019-05-10 23:44:56",293
"2019-05-11 12:44:53",293
"2019-05-12 01:44:54",293
"2019-05-12 14:44:53",293
"2019-05-13 03:44:57",293
"2019-05-13 16:44:53",293
"2019-05-14 05:44:52",292
"2019-05-14 18:44:56",292
"2019-05-15 07:44:56",292
"2019-05-15 20:44:54",293
"2019-05-16 09:45:02",293
"2019-05-16 22:45:02",293
"2019-05-17 11:45:02",293
"2019-05-18 00:44:56",294
"2019-05-18 14:44:48",294
"2019-05-19 03:44:47",294
"2019-05-19 16:44:50",294
"2019-05-20 05:44:50",294
"2019-05-20 18:44:47",294
"2019-05-21 07:44:50",294
"2019-05-21 20:44:48",295
"2019-05-22 09:44:55",295
"2019-05-22 22:44:47",294
"2019-05-23 11:44:47",294
"2019-05-24 00:44:50",293
"2019-05-24 13:44:49",293
"2019-05-25 04:44:52",297
"2019-05-26 16:44:49",297
"2019-05-27 05:44:50",297
"2019-05-27 18:44:49",297
"2019-05-28 07:44:52",297
"2019-05-28 20:44:50",300
"2019-05-29 09:44:56",300
"2019-05-29 22:44:50",300
"2019-05-30 11:44:51",300
"2019-05-31 00:44:48",300
"2019-05-31 13:44:52",300
"2019-06-01 02:44:49",299
"2019-06-01 15:44:51",299
"2019-06-02 04:44:50",299
"2019-06-02 17:44:51",299
"2019-06-03 06:44:49",299
"2019-06-03 19:44:52",300
"2019-06-04 08:44:54",300
"2019-06-04 21:44:49",300
"2019-06-05 10:44:49",300
"2019-06-05 23:44:50",301
"2019-06-06 13:08:53",301
"2019-06-07 01:44:51",304
"2019-06-07 14:44:53",303
"2019-06-08 03:44:55",301
"2019-06-08 16:44:52",301
"2019-06-09 05:44:55",301
"2019-06-09 18:44:50",301
"2019-06-10 07:44:56",301
"2019-06-10 20:44:53",300
"2019-06-11 09:44:56",300
"2019-06-11 22:44:53",298
"2019-06-12 11:44:58",298
"2019-06-13 00:44:56",299
"2019-06-13 13:44:58",299
"2019-06-14 02:44:58",297
"2019-06-14 15:44:59",297
"2019-06-15 04:44:56",297
"2019-06-15 17:44:55",297
"2019-06-16 06:44:59",297
"2019-06-16 19:44:56",297
"2019-06-17 08:44:57",297
"2019-06-17 21:44:56",297
"2019-06-18 10:44:54",297
"2019-06-18 23:44:57",299
"2019-06-19 13:07:32",299
"2019-06-20 01:44:55",302
"2019-06-20 14:44:56",302
"2019-06-21 03:44:57",301
"2019-06-21 16:44:57",300
"2019-06-22 05:44:58",300
"2019-06-22 18:45:02",300
"2019-06-23 07:44:55",300
"2019-06-23 20:44:58",300
"2019-06-24 09:45:00",300
"2019-06-24 22:44:57",299
"2019-06-25 11:44:55",299
"2019-06-26 00:44:59",298
"2019-06-26 13:44:58",298
"2019-06-27 02:45:00",297
"2019-06-27 15:44:58",297
"2019-06-28 04:44:58",297
"2019-06-28 17:44:55",298
"2019-06-29 06:44:55",298
"2019-06-29 19:44:58",298
"2019-06-30 08:44:58",298
"2019-06-30 21:44:56",298
"2019-07-01 10:44:55",298
"2019-07-01 23:44:59",299
"2019-07-02 13:44:59",299
"2019-07-03 03:45:03",299
"2019-07-03 16:45:18",299
"2019-07-04 05:45:01",299
"2019-07-04 18:44:58",299
"2019-07-05 07:44:58",299
"2019-07-05 20:44:59",299
"2019-07-06 09:44:58",299
"2019-07-06 22:44:57",299
"2019-07-07 11:44:54",299
"2019-07-08 00:44:57",299
"2019-07-08 13:44:57",299
"2019-07-09 02:45:06",304
"2019-07-09 15:44:56",306
"2019-07-10 04:44:55",307
"2019-07-10 17:44:56",308
"2019-07-11 06:44:57",309
"2019-07-11 19:44:56",308
"2019-07-12 08:44:57",309
"2019-07-12 21:44:57",308
"2019-07-13 10:44:56",308
"2019-07-13 23:44:57",308
"2019-07-14 12:44:56",308
"2019-07-15 01:44:56",308
"2019-07-15 14:44:57",307
"2019-07-16 03:44:56",312
"2019-07-16 16:44:58",313
"2019-07-17 05:45:11",314
"2019-07-17 18:44:58",312
"2019-07-18 07:44:54",312
"2019-07-18 20:44:58",316
"2019-07-19 09:44:57",316
"2019-07-19 22:44:57",313
"2019-07-20 11:44:56",313
"2019-07-21 00:44:57",313
"2019-07-21 13:44:57",313
"2019-07-22 02:44:56",313
"2019-07-22 15:44:56",313
"2019-07-23 04:44:58",315
"2019-07-23 17:44:56",317
"2019-07-24 06:44:55",317
"2019-07-24 19:44:57",316
"2019-07-25 08:45:01",316
"2019-07-25 21:45:04",315
"2019-07-26 10:45:00",315
"2019-07-27 00:44:57",314
"2019-07-27 13:44:56",314
"2019-07-28 02:44:56",314
"2019-07-28 15:44:55",314
"2019-07-29 04:44:58",314
"2019-07-29 17:44:57",314
"2019-07-30 06:44:57",314
"2019-07-30 19:45:03",313
"2019-07-31 08:44:59",313
"2019-07-31 21:45:00",311
"2019-08-01 10:44:58",311
"2019-08-01 23:44:59",308
"2019-08-02 13:09:05",308
"2019-08-03 01:44:58",307
"2019-08-03 14:44:59",307
"2019-08-04 03:45:00",307
"2019-08-04 16:44:59",307
"2019-08-05 05:45:01",307
"2019-08-05 18:45:03",307
"2019-08-06 07:44:59",308
"2019-08-06 20:45:00",309
"2019-08-07 10:45:06",309
"2019-08-07 23:45:00",310
"2019-08-08 12:45:00",310
"2019-08-09 01:45:04",312
"2019-08-09 14:45:12",312
"2019-08-10 03:45:02",312
"2019-08-10 16:45:11",312
"2019-08-11 05:45:12",312
"2019-08-11 18:45:03",312
"2019-08-12 07:45:03",312
"2019-08-12 20:45:03",315
"2019-08-13 09:45:03",315
"2019-08-13 22:45:10",315
"2019-08-14 11:45:00",315
"2019-08-15 00:45:32",318
"2019-08-15 13:45:09",318
"2019-08-16 02:45:02",317
"2019-08-16 15:45:02",317
"2019-08-17 06:45:05",318
"2019-08-17 19:45:04",318
"2019-08-18 08:45:08",318
"2019-08-18 21:45:13",318
"2019-08-19 10:45:06",318
"2019-08-19 23:45:01",317
"2019-08-20 13:07:07",317
"2019-08-21 01:45:07",317
"2019-08-21 14:45:04",319
"2019-08-22 03:45:03",321
"2019-08-22 16:45:13",320
"2019-08-23 05:45:07",319
"2019-08-23 18:45:11",326
"2019-08-24 07:45:09",326
"2019-08-24 20:45:05",326
"2019-08-25 09:45:02",326
"2019-08-25 22:45:03",326
"2019-08-26 11:45:03",326
"2019-08-27 00:45:06",330
"2019-08-27 13:45:24",330
"2019-08-28 02:45:12",332
"2019-08-28 15:45:05",335
"2019-08-29 04:45:04",335
"2019-08-29 17:45:02",335
"2019-08-30 06:44:59",334
"2019-08-30 20:45:17",334
"2019-09-01 03:45:14",334
"2019-09-01 16:45:20",334
"2019-09-02 05:45:26",334
"2019-09-02 18:45:16",334
"2019-09-03 07:45:12",334
"2019-09-03 20:45:15",337
"2019-09-04 09:45:16",337
"2019-09-04 22:45:13",337
"2019-09-05 13:09:18",337
"2019-09-06 01:45:16",339
"2019-09-06 14:45:13",338
"2019-09-07 04:45:16",335
"2019-09-07 17:45:15",335
"2019-09-08 07:45:13",335
"2019-09-08 20:45:17",335
"2019-09-09 09:45:10",335
"2019-09-09 22:45:13",334
"2019-09-10 11:45:14",334
"2019-09-11 00:45:14",336
"2019-09-11 13:45:18",336
"2019-09-12 02:45:21",343
"2019-09-12 15:45:16",343
"2019-09-13 04:45:12",344
"2019-09-13 17:45:12",344
"2019-09-14 06:45:11",344
"2019-09-14 19:45:09",344
"2019-09-15 08:45:14",344
"2019-09-15 21:45:14",344
"2019-09-16 10:45:10",344
"2019-09-16 23:45:17",342
"2019-09-17 12:45:14",342
"2019-09-18 01:45:13",343
"2019-09-18 14:45:16",343
"2019-09-19 03:45:15",343
"2019-09-19 16:45:21",341
"2019-09-20 05:45:17",342
"2019-09-20 18:45:10",344
"2019-09-21 07:45:08",344
"2019-09-21 20:45:09",344
"2019-09-22 09:45:13",344
"2019-09-22 22:45:08",344
"2019-09-23 11:45:14",344
"2019-09-24 00:45:12",345
"2019-09-24 14:45:12",344
"2019-09-25 03:45:17",347
"2019-09-25 16:45:14",347
"2019-09-26 05:45:14",348
"2019-09-26 18:45:20",348
"2019-09-27 07:45:19",348
"2019-09-27 20:45:08",351
"2019-09-28 09:45:12",351
"2019-09-28 22:45:13",351
"2019-09-29 11:45:12",351
"2019-09-30 00:45:08",351
"2019-09-30 13:45:10",352
"2019-10-01 02:45:13",355
"2019-10-01 15:45:11",360
"2019-10-02 04:45:16",364
"2019-10-02 17:45:09",364
"2019-10-03 07:45:13",365
"2019-10-03 20:45:10",370
"2019-10-04 09:45:09",370
"2019-10-04 22:45:08",374
"2019-10-05 11:45:11",374
"2019-10-06 00:45:10",374
"2019-10-06 13:45:08",374
"2019-10-07 02:45:12",374
"2019-10-07 15:45:11",376
"2019-10-08 04:45:10",374
"2019-10-08 17:45:12",373
"2019-10-09 06:45:10",374
"2019-10-09 19:45:16",375
"2019-10-10 08:45:10",373
"2019-10-10 21:45:12",372
"2019-10-11 10:45:11",372
"2019-10-11 23:45:11",370
"2019-10-12 12:45:18",370
"2019-10-13 01:45:12",370
"2019-10-13 14:45:15",370
"2019-10-14 03:45:14",370
"2019-10-14 16:45:17",371
"2019-10-15 06:45:14",372
"2019-10-15 19:45:17",373
"2019-10-16 08:45:22",373
"2019-10-16 21:45:15",379
"2019-10-17 11:45:16",379
"2019-10-18 00:45:12",384
"2019-10-18 13:45:11",384
"2019-10-19 02:45:12",391
"2019-10-19 15:45:13",391
"2019-10-20 04:45:13",391
"2019-10-20 18:45:12",391
"2019-10-21 07:45:14",391
"2019-10-21 20:45:11",398
"2019-10-22 10:45:12",398
"2019-10-22 23:45:14",406
"2019-10-23 12:45:20",406
"2019-10-24 01:45:15",404
"2019-10-24 14:45:13",405
"2019-10-25 03:45:14",407
"2019-10-25 16:45:20",408
"2019-10-26 05:45:13",411
"2019-10-26 18:45:17",411
"2019-10-27 07:45:12",411
"2019-10-27 20:45:17",411
"2019-10-28 09:45:12",411
"2019-10-29 02:45:16",414
"2019-10-29 15:45:15",418
"2019-10-30 04:45:19",418
"2019-10-30 18:45:13",414
"2019-10-31 07:45:15",415
"2019-10-31 20:45:16",412
"2019-11-01 09:45:17",412
"2019-11-01 22:45:13",412
"2019-11-02 11:45:12",412
"2019-11-03 03:45:15",412
"2019-11-04 06:45:14",412
"2019-11-04 20:45:13",413
"2019-11-05 09:45:16",413
"2019-11-05 22:45:14",410
"2019-11-06 11:45:13",410
"2019-11-07 00:45:14",405
"2019-11-07 14:09:17",405
"2019-11-08 02:45:26",399
"2019-11-08 15:45:21",399
"2019-11-09 04:45:24",401
"2019-11-09 17:45:22",401
"2019-11-10 06:45:20",401
"2019-11-10 19:45:19",401
"2019-11-11 08:45:26",401
"2019-11-11 22:45:21",401
"2019-11-12 11:45:24",401
"2019-11-13 00:45:27",403
"2019-11-13 13:45:21",403
"2019-11-14 03:45:20",401
"2019-11-14 17:45:23",400
"2019-11-15 06:45:24",401
"2019-11-15 20:45:25",402
"2019-11-16 09:45:26",402
"2019-11-16 22:45:20",402
"2019-11-17 12:45:20",402
"2019-11-18 01:45:18",402
"2019-11-18 14:45:20",402
"2019-11-19 03:45:19",407
"2019-11-19 16:45:20",409
"2019-11-20 05:45:22",409
"2019-11-20 23:45:20",410
"2019-11-21 12:45:19",410
"2019-11-22 01:45:23",410
"2019-11-22 14:45:22",410
"2019-11-23 03:45:18",413
"2019-11-23 16:45:18",413
"2019-11-24 05:45:17",413
"2019-11-24 18:45:20",413
"2019-11-25 08:45:25",413
"2019-11-25 21:45:18",419
"2019-11-26 21:45:21",420
"2019-11-27 10:45:19",420
"2019-11-27 23:45:21",419
"2019-11-28 12:45:19",419
"2019-11-29 01:45:20",419
"2019-11-29 15:45:28",418
"2019-11-30 05:45:28",418
"2019-12-02 01:45:25",418
"2019-12-02 16:47:40",417
"2019-12-03 05:48:04",415
"2019-12-03 18:47:57",419
"2019-12-04 08:47:47",418
"2019-12-04 21:48:03",418
"2019-12-05 11:47:38",418
"2019-12-06 00:48:04",418
"2019-12-06 13:48:55",418
"2019-12-07 02:48:07",415
"2019-12-07 15:48:09",415
"2019-12-08 04:48:01",415
"2019-12-08 17:48:08",415
"2019-12-09 06:48:09",415
"2019-12-09 19:47:42",421
"2019-12-10 08:48:10",420
"2019-12-10 21:48:03",422
"2019-12-11 10:47:56",422
"2019-12-11 23:48:12",420
"2019-12-12 12:47:48",420
"2019-12-13 02:49:08",414
"2019-12-13 15:49:20",414
"2019-12-14 04:49:03",415
"2019-12-14 17:48:50",415
"2019-12-15 08:48:43",415
"2019-12-15 23:48:59",415
"2019-12-16 13:48:56",415
"2019-12-17 02:49:23",413
"2019-12-17 15:49:29",413
"2019-12-18 05:49:00",414
"2019-12-18 18:49:05",416
"2019-12-19 07:48:49",419
"2019-12-19 21:10:42",420
"2019-12-20 09:49:07",420
"2019-12-20 22:49:17",416
"2019-12-21 11:48:24",416
"2019-12-22 01:48:46",416
"2019-12-22 15:49:15",416
"2019-12-23 05:49:04",416
"2019-12-23 18:49:25",416
"2019-12-24 07:48:40",417
"2019-12-24 20:48:38",424
"2019-12-25 09:48:46",424
"2019-12-25 22:48:43",424
"2019-12-26 11:48:26",424
"2019-12-27 01:49:29",421
"2019-12-27 14:49:46",421
"2019-12-28 03:49:00",421
"2019-12-28 16:48:59",421
"2019-12-29 06:49:32",421
"2019-12-29 19:49:23",421
"2019-12-30 08:48:53",421
"2019-12-30 21:49:03",424
"2019-12-31 11:49:07",424
"2020-01-01 00:48:47",427
"2020-01-01 13:48:39",427
"2020-01-02 02:50:02",427
"2020-01-02 15:49:39",430
"2020-01-03 04:49:07",425
"2020-01-03 17:50:08",426
"2020-01-04 06:48:57",424
"2020-01-04 20:49:16",423
"2020-01-05 09:48:30",423
"2020-01-05 23:49:05",423
"2020-01-16 09:48:21",436
"2020-01-16 23:48:42",437
"2020-01-17 12:48:23",437
"2020-01-18 01:48:32",437
"2020-01-18 14:48:22",437
"2020-01-19 04:48:30",437
"2020-01-19 17:48:20",437
"2020-01-20 06:49:16",437
"2020-01-20 19:49:01",437
"2020-01-21 10:03:35",437
"2020-01-21 23:48:47",437
"2020-01-22 12:48:46",437
"2020-01-23 01:49:25",440
"2020-01-23 15:48:50",439
"2020-01-24 04:48:28",439
"2020-01-24 17:48:29",443
"2020-01-25 06:48:24",440
"2020-01-25 20:48:25",440
"2020-01-27 04:48:32",440
"2020-01-27 17:48:54",438
"2020-01-28 06:48:09",439
"2020-01-28 19:48:48",442
"2020-01-29 09:48:38",442
"2020-01-29 22:48:37",439
"2020-01-30 11:48:24",439
"2020-01-31 00:48:31",437
"2020-01-31 13:48:43",437
"2020-02-01 02:48:36",437
"2020-02-01 15:48:38",437
"2020-02-02 04:48:35",437
"2020-02-02 17:49:02",437
"2020-02-03 06:48:39",437
"2020-02-03 19:49:08",437
"2020-02-04 08:48:31",436
"2020-02-04 22:48:54",434
"2020-02-05 11:48:48",434
"2020-02-06 00:49:09",434
"2020-02-06 13:48:40",434
"2020-02-07 02:48:52",433
"2020-02-07 15:49:14",434
"2020-02-08 04:49:09",433
"2020-02-08 17:48:57",433
"2020-02-09 06:48:48",433
"2020-02-09 19:48:57",433
"2020-02-10 08:48:50",433
"2020-02-10 21:49:08",430
"2020-02-11 10:48:37",430
"2020-02-11 23:48:54",433
"2020-02-12 12:48:46",433
"2020-02-13 01:48:44",435
"2020-02-13 14:48:56",435
"2020-02-14 03:48:41",433
"2020-02-14 16:48:49",433
"2020-02-15 05:47:47",434
"2020-02-15 18:48:12",434
"2020-02-16 07:47:46",434
"2020-02-16 20:47:48",434
"2020-02-17 09:47:52",434
"2020-02-17 23:48:11",434
"2020-02-18 12:48:56",434
"2020-02-19 03:48:54",436
"2020-02-19 16:48:42",438
"2020-02-20 05:48:56",436
"2020-02-20 18:49:13",435
"2020-02-21 08:49:19",435
"2020-02-21 21:50:13",431
"2020-02-22 10:48:46",431
"2020-02-22 23:48:23",431
"2020-02-23 12:48:37",431
"2020-02-24 01:48:27",431
"2020-02-24 14:50:55",431
"2020-02-25 03:49:43",431
"2020-02-25 16:49:47",431
"2020-02-26 05:50:20",432
"2020-02-26 18:49:53",432
"2020-02-27 07:49:20",432
"2020-02-27 20:49:58",429
"2020-02-28 09:50:27",433
"2020-02-28 22:50:14",431
"2020-02-29 12:50:48",431
"2020-03-01 01:50:43",431
"2020-03-01 14:48:23",431
"2020-03-02 03:51:31",431
"2020-03-03 02:50:20",433
"2020-03-03 17:53:00",433
"2020-03-04 06:52:31",434
"2020-03-04 19:57:16",434
"2020-03-05 08:51:15",432
"2020-03-05 21:49:34",431
"2020-03-06 10:49:36",431
"2020-03-06 23:50:24",436
"2020-03-07 12:50:19",436
"2020-03-08 01:50:27",436
"2020-03-08 14:49:47",436
"2020-03-09 03:52:15",436
"2020-03-09 16:49:41",439
"2020-03-10 06:52:35",440
"2020-03-10 19:52:11",443
"2020-03-11 08:50:19",443
"2020-03-11 21:50:22",447
"2020-03-12 10:51:54",447
"2020-03-12 23:52:30",444
"2020-03-13 13:10:49",444
"2020-03-14 01:52:38",448
"2020-03-14 14:52:06",448
"2020-03-15 03:52:44",448
"2020-03-15 16:51:54",448
"2020-03-16 05:52:46",448
"2020-03-16 19:52:43",452
"2020-03-17 23:50:12",461
"2020-03-18 13:12:20",461
"2020-03-19 01:50:54",458
"2020-03-19 14:50:10",458
"2020-03-20 03:50:10",461
"2020-03-20 17:50:04",460
"2020-03-21 06:49:57",461
"2020-03-21 19:50:09",461
"2020-03-22 09:17:55",461
"2020-03-23 05:50:31",461
"2020-03-23 18:49:59",465
"2020-03-24 07:51:03",464
"2020-03-24 20:49:52",473
"2020-03-25 11:50:27",473
"2020-03-26 02:09:06",475
"2020-03-26 14:50:27",479
"2020-03-27 03:50:09",492
"2020-03-27 16:50:25",510
"2020-03-28 05:51:15",511
"2020-03-28 18:50:13",511
"2020-03-29 07:50:27",511
"2020-03-29 20:49:49",511
"2020-03-30 09:49:39",511
"2020-03-30 22:49:47",514
"2020-03-31 11:50:32",514
"2020-04-01 00:48:47",521
"2020-04-01 13:48:48",521
"2020-04-02 02:48:41",520
"2020-04-02 15:48:54",518
"2020-04-03 05:49:24",528
"2020-04-03 19:48:41",538
"2020-04-04 08:49:11",537
"2020-04-04 21:48:36",537
"2020-04-05 10:49:28",537
"2020-04-05 23:48:34",537
"2020-04-06 12:49:00",537
"2020-04-07 01:49:02",545
"2020-04-07 14:48:17",544
"2020-04-08 03:48:50",537
"2020-04-08 17:48:58",539
"2020-04-09 07:48:17",539
"2020-04-09 20:48:27",540
"2020-04-10 09:48:25",540
"2020-04-10 22:47:58",540
"2020-04-11 11:47:50",540
"2020-04-12 00:48:08",540
"2020-04-12 13:48:08",540
"2020-04-13 02:48:17",540
"2020-04-13 15:47:57",549
"2020-04-14 04:48:23",553
"2020-04-14 17:47:50",560
"2020-04-15 06:47:52",563
"2020-04-15 20:47:57",572
"2020-04-16 09:47:55",572
"2020-04-16 22:48:04",579
"2020-04-17 11:47:54",579
"2020-04-18 00:48:20",579
"2020-04-18 13:48:15",579
"2020-04-19 02:48:23",579
"2020-04-19 15:48:09",579
"2020-04-20 04:48:24",579
"2020-04-20 17:48:12",582
"2020-04-21 07:48:14",584
"2020-04-21 20:48:33",602
"2020-04-22 09:48:08",602
"2020-04-22 22:48:17",598
"2020-04-23 11:48:15",598
"2020-04-24 00:48:18",599
"2020-04-24 13:48:27",599
"2020-04-25 02:48:26",607
"2020-04-25 15:48:10",607
"2020-04-26 04:47:56",607
"2020-04-26 17:48:02",607
"2020-04-27 06:48:07",607
"2020-04-27 19:47:58",614
"2020-04-28 08:48:27",617
"2020-04-28 21:48:08",624
"2020-04-29 10:48:06",624
"2020-04-29 23:48:16",627
"2020-04-30 12:47:57",627
"2020-05-01 02:48:04",643
"2020-05-01 15:47:56",648
"2020-05-02 04:48:04",651
"2020-05-02 17:48:03",651
"2020-05-03 06:48:02",651
"2020-05-03 19:49:05",651
"2020-05-04 10:51:47",651
"2020-05-04 21:48:32",662
"2020-05-05 10:47:54",662
"2020-05-05 23:48:35",661
"2020-05-06 22:48:39",660
"2020-05-07 12:48:08",660
"2020-05-08 01:47:52",657
"2020-05-08 14:48:08",652
"2020-05-09 03:48:50",649
"2020-05-09 16:47:57",649
"2020-05-10 05:48:24",649
"2020-05-10 18:48:13",649
"2020-05-11 07:48:18",649
"2020-05-11 20:48:05",651
"2020-05-12 09:49:25",651
"2020-05-13 02:48:37",651
"2020-05-13 17:48:02",651
"2020-05-14 06:48:17",648
"2020-05-14 19:48:18",649
"2020-05-15 08:48:11",651
"2020-05-15 21:48:07",653
"2020-05-16 10:47:59",653
"2020-05-16 23:48:08",653
"2020-05-18 10:00:11",653
"2020-05-18 11:12:35",653
"2020-05-18 14:48:04",660
"2020-05-19 04:48:06",655
"2020-05-19 17:48:02",657
"2020-05-20 06:48:05",657
"2020-05-20 19:48:10",654
"2020-05-21 08:48:13",661
"2020-05-21 21:48:13",653
"2020-05-22 10:48:09",653
"2020-05-22 23:48:01",660
"2020-05-23 12:48:08",660
"2020-05-24 01:48:23",660
"2020-05-24 14:48:11",660
"2020-05-25 03:48:32",660
"2020-05-25 17:48:08",660
"2020-05-26 06:48:11",660
"2020-05-26 19:48:04",675
"2020-05-27 08:48:03",677
"2020-05-27 21:48:03",671
"2020-05-28 10:48:17",671
"2020-05-28 23:48:28",686
"2020-05-29 12:48:44",686
"2020-05-30 01:48:02",685
"2020-05-30 14:48:04",685
"2020-05-31 03:48:15",685
"2020-06-01 05:39:18",685
"2020-06-01 06:48:26",685
"2020-06-01 18:48:42",681
"2020-06-02 07:48:17",684
"2020-06-02 20:48:50",698
"2020-06-03 09:48:14",698
"2020-06-03 22:48:11",686
"2020-06-04 11:48:21",686
"2020-06-05 00:48:23",702
"2020-06-05 13:48:42",702
"2020-06-06 02:48:12",732
"2020-06-06 15:48:16",732
"2020-06-07 05:48:16",732
"2020-06-08 13:48:18",732
"2020-06-09 02:48:36",780
"2020-06-09 15:48:56",826
"2020-06-10 04:48:43",829
"2020-06-10 18:48:38",823
"2020-06-11 07:49:01",825
"2020-06-11 20:48:21",824
"2020-06-12 09:48:28",825
"2020-06-12 22:48:10",822
"2020-06-13 11:48:07",822
"2020-06-14 00:48:16",822
"2020-06-14 13:48:12",822
"2020-06-15 02:48:19",822
"2020-06-15 15:48:27",826
"2020-06-15 20:01:58",822
"2020-06-15 21:46:24",823
"2020-06-16 09:48:08",823
"2020-06-16 22:48:02",820
"2020-06-17 11:48:16",820
"2020-06-18 00:48:07",823
"2020-06-18 13:48:39",823
"2020-06-19 03:48:50",823
"2020-06-19 16:48:16",822
"2020-06-20 05:48:15",819
"2020-06-20 18:48:11",819
"2020-06-21 07:48:16",819
"2020-06-21 20:48:17",819
"2020-06-22 09:48:20",819
"2020-06-22 23:48:16",820
"2020-06-23 12:48:25",820
"2020-06-24 01:48:47",826
"2020-06-24 14:48:20",829
"2020-06-25 03:48:15",832
"2020-06-25 16:48:52",828
"2020-06-26 05:48:25",825
"2020-06-26 18:48:29",827
"2020-06-27 07:48:22",828
"2020-06-27 20:48:11",828
"2020-06-28 09:48:14",828
"2020-06-28 22:48:37",828
"2020-06-29 11:48:16",828
"2020-06-30 00:48:50",828
"2020-06-30 13:49:23",828
"2020-07-01 02:48:56",818
"2020-07-01 15:49:17",812
"2020-07-02 04:48:31",817
"2020-07-02 17:48:44",830
"2020-07-03 06:48:26",836
"2020-07-03 19:48:28",836
"2020-07-04 08:48:30",836
"2020-07-04 21:48:29",836
"2020-07-05 11:40:11",836
"2020-07-05 23:48:19",836
"2020-07-06 08:48:35",836